File: Input_Files/XRF/Avaatech_fromIODP_LIMS_50kV.xlsx - Avaatech_fromIODP_LIMS_50kV_raw.csv
Expedition,Site,Hole,Core,Type,Section,A/W,Offset (mm),CSF-A (m),CSF-B (m),Test No.,TextID,Voltage (kV),Tube Current (mA),Live Time (s),Real Time (s),Down-Core Slit (mm),Cross-Core Slit (mm),Filter,Total Counts Per Second,Ca-Ka Area,Mn-Ka Area,Fe-Ka Area,Ni-Ka Area,Rb-Ka Area,Sr-Ka Area,Y -Ka Area,Zr-Ka Area,Ag-Ka Area,Ba-Ka Area,Instrument,Date of Measure,Time of Measure,Uploaded By,Date Uploaded,Comment
374,U1522,A,22,R,1,A,20,203.22,203.22,44323662,SHLF9310431,50,0.75,10,15,10,12,Cu,99057,663,190,9316,3400,1090,1295,280,2341,504921,5466,XRF 2,7/4/2018,11:38:52,LEVAY_B,8/3/18 0:14,~1mm spacers; with film; XRF 2
374,U1522,A,22,R,1,A,650,203.85,203.85,44323662,SHLF9310431,50,0.75,10,14,10,12,Cu,96047,568,120,7419,3461,843,1430,242,2052,516201,5621,XRF 2,7/4/2018,11:51:39,LEVAY_B,8/3/18 0:14,~1mm spacers; with film; XRF 2
374,U1522,A,22,R,1,A,1370,204.57,204.57,44323662,SHLF9310431,50,0.75,10,14,10,12,Cu,94908,602,151,8215,3236,834,1408,203,2162,509737,5713,XRF 2,7/4/2018,12:04:27,LEVAY_B,8/3/18 0:14,~1mm spacers; with film; XRF 2
374,U1522,A,22,R,2,A,580,205.28,205.28,44323672,SHLF9310461,50,0.75,10,15,10,12,Cu,96316,523,250,7281,3463,893,1407,233,2261,509012,5816,XRF 2,7/4/2018,13:06:35,LEVAY_B,8/3/18 0:14,~1mm spacers; with film; XRF 2
374,U1522,A,22,R,2,A,1320,206.02,206.02,44323672,SHLF9310461,50,0.75,10,15,10,12,Cu,96642,502,192,6941,3297,945,1395,234,2402,508077,6333,XRF 2,7/4/2018,13:19:28,LEVAY_B,8/3/18 0:14,~1mm spacers; with film; XRF 2
374,U1522,A,22,R,3,A,920,207.12,207.12,44323682,SHLF9310491,50,0.75,10,14,10,12,Cu,96061,453,123,7383,3363,863,1450,253,2023,509713,6288,XRF 2,7/4/2018,14:07:26,LEVAY_B,8/3/18 0:14,~1mm spacers; with film; XRF 2
374,U1522,A,22,R,4,A,340,208.05,208.05,44323692,SHLF9310521,50,0.75,10,14,10,12,Cu,95362,634,231,6538,3472,737,1485,209,2072,516393,5877,XRF 2,7/4/2018,15:01:12,LEVAY_B,8/3/18 0:14,~1mm spacers; with film; XRF 2
374,U1522,A,22,R,4,A,1180,208.89,208.89,44323692,SHLF9310521,50,0.75,10,15,10,12,Cu,97873,555,370,7831,3500,879,1589,331,2270,514493,7061,XRF 2,7/4/2018,15:14:13,LEVAY_B,8/3/18 0:14,~1mm spacers; with film; XRF 2
374,U1522,A,23,R,1,A,1380,214.18,214.18,44323702,SHLF9310661,50,0.75,10,15,10,12,Cu,96858,441,182,6986,3337,993,1408,229,2097,510149,5386,XRF 2,7/4/2018,15:52:32,LEVAY_B,8/3/18 0:14,~1mm spacers; with film; XRF 2
374,U1522,A,23,R,3,A,480,215.98,215.98,44323722,SHLF9310721,50,0.75,10,14,10,12,Cu,93701,536,229,7158,3278,860,1292,239,1695,509274,4973,XRF 2,7/4/2018,16:57:24,LEVAY_B,8/3/18 0:14,~1mm spacers; with film; XRF 2
374,U1522,A,23,R,4,A,140,217.15,217.15,44323732,SHLF9310751,50,0.75,10,15,10,12,Cu,96771,609,148,7191,3462,854,1424,261,2046,500939,5722,XRF 2,7/5/2018,8:53:25,LEVAY_B,8/3/18 0:14,~1mm spacers; with film; XRF 2
374,U1522,A,23,R,4,A,760,217.77,217.77,44323732,SHLF9310751,50,0.75,10,15,10,12,Cu,96700,702,201,7137,3331,940,1297,172,2030,500379,6026,XRF 2,7/5/2018,9:06:33,LEVAY_B,8/3/18 0:14,~1mm spacers; with film; XRF 2
374,U1522,A,24,R,1,A,660,223.06,223.06,44323742,SHLF9310901,50,0.75,10,15,10,12,Cu,96501,477,220,6114,3473,847,1191,204,1925,505764,4984,XRF 2,7/5/2018,10:13:00,LEVAY_B,8/3/18 0:14,~1mm spacers; with film; XRF 2
374,U1522,A,24,R,1,A,1240,223.64,223.64,44323742,SHLF9310901,50,0.75,10,15,10,12,Cu,98595,592,104,7034,3432,928,1399,232,2203,510972,5351,XRF 2,7/5/2018,10:26:04,LEVAY_B,8/3/18 0:14,~1mm spacers; with film; XRF 2
374,U1522,A,24,R,2,A,390,224.28,224.28,44323752,SHLF9310931,50,0.75,10,14,10,12,Cu,94420,526,121,6870,3338,863,1265,266,1868,506815,5143,XRF 2,7/5/2018,11:35:28,LEVAY_B,8/3/18 0:14,~1mm spacers; with film; XRF 2
374,U1522,A,24,R,2,A,1020,224.91,224.91,44323752,SHLF9310931,50,0.75,10,15,10,12,Cu,97407,567,64,6390,3502,920,1383,288,2240,504894,5597,XRF 2,7/5/2018,11:48:33,LEVAY_B,8/3/18 0:14,~1mm spacers; with film; XRF 2
374,U1522,A,24,R,3,A,120,225.52,225.52,44323762,SHLF9310961,50,0.75,10,14,10,12,Cu,95299,922,139,5652,3437,815,2233,182,2225,504440,5486,XRF 2,7/5/2018,12:53:04,LEVAY_B,8/3/18 0:14,~1mm spacers; with film; XRF 2
374,U1522,A,24,R,3,A,820,226.22,226.22,44323762,SHLF9310961,50,0.75,10,15,10,12,Cu,97647,508,130,6318,3392,899,1458,252,2090,506909,6020,XRF 2,7/5/2018,13:06:19,LEVAY_B,8/3/18 0:14,~1mm spacers; with film; XRF 2
374,U1522,A,24,R,3,A,1440,226.84,226.84,44323762,SHLF9310961,50,0.75,10,15,10,12,Cu,97565,509,248,6768,3350,858,1277,275,2005,519309,4876,XRF 2,7/5/2018,13:19:32,LEVAY_B,8/3/18 0:14,~1mm spacers; with film; XRF 2
374,U1522,A,27,R,1,A,60,251.26,251.26,44323782,SHLF9311451,50,0.75,10,15,10,12,Cu,100366,562,167,5703,3532,885,1358,229,2111,515949,5631,XRF 2,7/5/2018,15:04:30,LEVAY_B,8/3/18 0:15,~1mm spacers; with film; XRF 2
374,U1522,A,27,R,1,A,900,252.1,252.1,44323782,SHLF9311451,50,0.75,10,15,10,12,Cu,97963,446,315,7186,3542,906,1257,262,1998,505439,5361,XRF 2,7/5/2018,15:17:47,LEVAY_B,8/3/18 0:15,~1mm spacers; with film; XRF 2
374,U1522,A,27,R,2,A,120,252.82,252.82,44323792,SHLF9311481,50,0.75,10,15,10,12,Cu,98396,685,173,6474,3447,896,1754,187,2025,506805,5710,XRF 2,7/5/2018,16:23:16,LEVAY_B,8/3/18 0:15,~1mm spacers; with film; XRF 2
374,U1522,A,27,R,2,A,840,253.54,253.54,44323792,SHLF9311481,50,0.75,10,14,10,12,Cu,92669,505,158,4819,3197,690,1097,215,1526,508946,4498,XRF 2,7/5/2018,16:36:22,LEVAY_B,8/3/18 0:15,~1mm spacers; with film; XRF 2
374,U1522,A,27,R,3,A,40,254.24,254.24,44323802,SHLF9311511,50,0.75,10,15,10,12,Cu,100422,434,163,6386,3527,814,1319,212,1846,539341,5460,XRF 2,7/5/2018,17:43:43,LEVAY_B,8/3/18 0:15,~1mm spacers; with film; XRF 2
374,U1522,A,27,R,3,A,700,254.9,254.9,44323802,SHLF9311511,50,0.75,10,15,10,12,Cu,98107,466,245,6831,3471,778,1348,200,1763,515597,5266,XRF 2,7/5/2018,17:56:54,LEVAY_B,8/3/18 0:15,~1mm spacers; with film; XRF 2
374,U1522,A,27,R,4,A,60,255.76,255.76,44323812,SHLF9311541,50,0.75,10,15,10,12,Cu,95850,520,205,5731,3486,848,1159,159,1812,500220,5003,XRF 2,7/6/2018,8:56:54,LEVAY_B,8/3/18 0:15,~1mm spacers; with film; XRF 2
374,U1522,A,27,R,4,A,640,256.34,256.34,44323812,SHLF9311541,50,0.75,10,15,10,12,Cu,96806,545,174,6214,3355,860,1497,241,1937,505525,5866,XRF 2,7/6/2018,9:09:48,LEVAY_B,8/3/18 0:15,~1mm spacers; with film; XRF 2
374,U1522,A,27,R,5,A,60,256.97,256.97,44323822,SHLF9311571,50,0.75,10,15,10,12,Cu,97474,589,159,7007,3453,795,1254,247,1829,512243,5157,XRF 2,7/6/2018,10:24:12,LEVAY_B,8/3/18 0:15,~1mm spacers; with film; XRF 2
374,U1522,A,27,R,5,A,680,257.59,257.59,44323822,SHLF9311571,50,0.75,10,14,10,12,Cu,94045,520,121,5984,3235,823,1245,257,1698,505107,4784,XRF 2,7/6/2018,10:36:52,LEVAY_B,8/3/18 0:15,~1mm spacers; with film; XRF 2
374,U1522,A,28,R,1,A,620,261.42,261.42,44323832,SHLF9311761,50,0.75,10,14,10,12,Cu,92394,599,174,5519,3216,594,1107,117,1515,506344,4349,XRF 2,7/6/2018,11:40:15,LEVAY_B,8/3/18 0:15,~1mm spacers; with film; XRF 2
374,U1522,A,28,R,1,A,1240,262.04,262.04,44323832,SHLF9311761,50,0.75,10,15,10,12,Cu,97547,745,273,8830,3490,1064,6408,131,2251,509312,13179,XRF 2,7/6/2018,11:52:57,LEVAY_B,8/3/18 0:15,~1mm spacers; with film; XRF 2
374,U1522,A,28,R,2,A,440,262.74,262.74,44323842,SHLF9311791,50,0.75,10,15,10,12,Cu,96745,509,242,6238,3454,763,1269,220,1772,508340,4103,XRF 2,7/6/2018,12:50:29,LEVAY_B,8/3/18 0:15,~1mm spacers; with film; XRF 2
374,U1522,A,28,R,2,A,1180,263.48,263.48,44323842,SHLF9311791,50,0.75,10,15,10,12,Cu,97680,647,188,5912,3458,843,1390,174,1853,512299,5378,XRF 2,7/6/2018,13:03:12,LEVAY_B,8/3/18 0:15,~1mm spacers; with film; XRF 2
374,U1522,A,28,R,3,A,460,264.27,264.27,44323852,SHLF9311821,50,0.75,10,15,10,12,Cu,100689,639,159,6204,3514,817,1433,229,1881,528053,5473,XRF 2,7/6/2018,13:57:34,LEVAY_B,8/3/18 0:15,~1mm spacers; with film; XRF 2
374,U1522,A,29,R,1,A,320,270.72,270.72,44323862,SHLF9312011,50,0.75,10,15,10,12,Cu,99112,485,174,7229,3416,926,1410,215,2106,517206,5914,XRF 2,7/6/2018,15:03:20,LEVAY_B,8/3/18 0:15,~1mm spacers; with film; XRF 2
374,U1522,A,29,R,1,A,940,271.34,271.34,44323862,SHLF9312011,50,0.75,10,15,10,12,Cu,99359,586,248,7161,3607,837,1323,219,1945,508786,5741,XRF 2,7/6/2018,15:15:58,LEVAY_B,8/3/18 0:15,~1mm spacers; with film; XRF 2
374,U1522,A,29,R,2,A,100,272,272,44323872,SHLF9312041,50,0.75,10,15,10,12,Cu,97388,533,207,7310,3435,992,1480,294,2117,506947,5999,XRF 2,7/6/2018,16:24:44,LEVAY_B,8/3/18 0:15,~1mm spacers; with film; XRF 2
374,U1522,A,29,R,2,A,720,272.62,272.62,44323872,SHLF9312041,50,0.75,10,15,10,12,Cu,97843,500,117,6124,3515,981,1337,204,1950,509740,5723,XRF 2,7/6/2018,16:37:25,LEVAY_B,8/3/18 0:15,~1mm spacers; with film; XRF 2
374,U1522,A,29,R,2,A,1340,273.24,273.24,44323872,SHLF9312041,50,0.75,10,15,10,12,Cu,98918,601,95,6613,3472,988,1461,228,2093,508883,5938,XRF 2,7/6/2018,16:50:06,LEVAY_B,8/3/18 0:15,~1mm spacers; with film; XRF 2
374,U1522,A,29,R,3,A,740,274.15,274.15,44323882,SHLF9312071,50,0.75,10,15,10,12,Cu,97031,494,151,7126,3328,887,1379,266,2119,514369,5409,XRF 2,7/6/2018,17:41:21,LEVAY_B,8/3/18 0:15,~1mm spacers; with film; XRF 2
374,U1522,A,29,R,4,A,140,274.86,274.86,44323892,SHLF9312101,50,0.75,10,15,10,12,Cu,98289,537,115,6852,3558,931,1316,193,2090,502753,5764,XRF 2,7/7/2018,8:45:35,LEVAY_B,8/3/18 0:15,~1mm spacers; with film; XRF 2
374,U1522,A,30,R,1,A,100,280.1,280.1,44323902,SHLF9312291,50,0.75,10,15,10,12,Cu,98838,634,119,6232,3582,827,1192,244,1701,521193,5356,XRF 2,7/7/2018,9:48:45,LEVAY_B,8/3/18 0:15,~1mm spacers; with film; XRF 2
374,U1522,A,30,R,1,A,740,280.74,280.74,44323902,SHLF9312291,50,0.75,10,14,10,12,Cu,91952,441,92,5097,3161,778,1240,247,1761,503511,4799,XRF 2,7/7/2018,10:01:22,LEVAY_B,8/3/18 0:15,~1mm spacers; with film; XRF 2
374,U1522,A,30,R,1,A,1400,281.4,281.4,44323902,SHLF9312291,50,0.75,10,15,10,12,Cu,97680,605,128,7011,3327,899,1306,288,2067,509358,5540,XRF 2,7/7/2018,10:14:05,LEVAY_B,8/3/18 0:15,~1mm spacers; with film; XRF 2
374,U1522,A,30,R,2,A,540,282.04,282.04,44323912,SHLF9312321,50,0.75,10,15,10,12,Cu,98663,440,178,5942,3418,964,1333,237,1910,509175,4833,XRF 2,7/7/2018,11:20:33,LEVAY_B,8/3/18 0:15,~1mm spacers; with film; XRF 2
374,U1522,A,30,R,2,A,1140,282.64,282.64,44323912,SHLF9312321,50,0.75,10,15,10,12,Cu,98381,457,127,6172,3414,888,1224,205,1981,514252,4941,XRF 2,7/7/2018,11:33:20,LEVAY_B,8/3/18 0:15,~1mm spacers; with film; XRF 2
374,U1522,A,30,R,3,A,260,283.26,283.26,44323922,SHLF9312351,50,0.75,10,15,10,12,Cu,99251,488,224,5948,3418,1008,1314,270,1857,511103,5421,XRF 2,7/7/2018,12:40:12,LEVAY_B,8/3/18 0:16,~1mm spacers; with film; XRF 2
374,U1522,A,30,R,3,A,880,283.88,283.88,44323922,SHLF9312351,50,0.75,10,15,10,12,Cu,97889,434,182,4606,3442,910,1171,264,1792,504833,4904,XRF 2,7/7/2018,12:53:02,LEVAY_B,8/3/18 0:16,~1mm spacers; with film; XRF 2
374,U1522,A,30,R,4,A,20,284.53,284.53,44323932,SHLF9312381,50,0.75,10,15,10,12,Cu,99899,438,160,6212,3550,1022,1341,226,1945,507852,5697,XRF 2,7/9/2018,8:43:52,LEVAY_B,8/3/18 0:16,~1mm spacers; with film; XRF 2
374,U1522,A,30,R,4,A,720,285.23,285.23,44323932,SHLF9312381,50,0.75,10,15,10,12,Cu,97980,496,89,5330,3471,866,1082,236,1767,507255,5182,XRF 2,7/9/2018,8:56:51,LEVAY_B,8/3/18 0:16,~1mm spacers; with film; XRF 2
374,U1522,A,31,R,1,A,330,289.93,289.93,44323942,SHLF9312541,50,0.75,10,15,10,12,Cu,98332,531,124,5743,3486,921,1223,270,2121,513215,4894,XRF 2,7/9/2018,10:05:22,LEVAY_B,8/3/18 0:16,~1mm spacers; with film; XRF 2
374,U1522,A,31,R,1,A,840,290.44,290.44,44323942,SHLF9312541,50,0.75,10,15,10,12,Cu,99695,454,169,5670,3580,965,1248,246,1973,505904,5570,XRF 2,7/9/2018,10:18:15,LEVAY_B,8/3/18 0:16,~1mm spacers; with film; XRF 2
374,U1522,A,31,R,2,A,40,291.13,291.13,44323952,SHLF9312571,50,0.75,10,15,10,12,Cu,97966,433,206,5780,3544,904,1224,213,1780,505451,4720,XRF 2,7/9/2018,11:13:10,LEVAY_B,8/3/18 0:16,~1mm spacers; with film; XRF 2
374,U1522,A,31,R,2,A,660,291.75,291.75,44323952,SHLF9312571,50,0.75,10,15,10,12,Cu,97899,538,204,5657,3540,971,1270,167,1753,508584,5189,XRF 2,7/9/2018,11:26:09,LEVAY_B,8/3/18 0:16,~1mm spacers; with film; XRF 2
374,U1522,A,31,R,3,A,180,292.5,292.5,44323962,SHLF9312601,50,0.75,10,14,10,12,Cu,95657,479,134,5124,3377,789,1239,239,1629,507065,4629,XRF 2,7/9/2018,12:12:33,LEVAY_B,8/3/18 0:16,~1mm spacers; with film; XRF 2
374,U1522,A,31,R,3,A,1020,293.34,293.34,44323962,SHLF9312601,50,0.75,10,14,10,12,Cu,94589,471,55,5519,3442,931,1166,162,1912,504566,4307,XRF 2,7/9/2018,12:25:28,LEVAY_B,8/3/18 0:16,~1mm spacers; with film; XRF 2
374,U1522,A,31,R,4,A,620,294.06,294.06,44323972,SHLF9312631,50,0.75,10,15,10,12,Cu,99308,576,187,7231,3504,990,1570,199,1896,506554,8525,XRF 2,7/9/2018,13:08:08,LEVAY_B,8/3/18 0:16,~1mm spacers; with film; XRF 2
374,U1522,A,32,R,1,A,660,299.86,299.86,44323982,SHLF9312851,50,0.75,10,15,10,12,Cu,97778,435,175,5145,3498,981,1141,316,1891,511888,4998,XRF 2,7/9/2018,13:53:55,LEVAY_B,8/3/18 0:16,~1mm spacers; with film; XRF 2
374,U1522,A,33,R,1,A,320,309.12,309.12,44323992,SHLF9313041,50,0.75,10,15,10,12,Cu,98424,504,278,5772,3529,1002,1362,281,2153,510026,5501,XRF 2,7/9/2018,15:01:56,LEVAY_B,8/3/18 0:16,~1mm spacers; with film; XRF 2
374,U1522,A,33,R,1,A,960,309.76,309.76,44323992,SHLF9313041,50,0.75,10,15,10,12,Cu,96597,528,89,10414,3254,1412,925,388,2254,507315,9933,XRF 2,7/9/2018,15:14:46,LEVAY_B,8/3/18 0:16,~1mm spacers; with film; XRF 2
374,U1522,A,33,R,2,A,690,310.86,310.86,44324002,SHLF9313071,50,0.75,10,15,10,12,Cu,97643,386,87,6047,3400,918,1482,227,2229,505227,5962,XRF 2,7/9/2018,16:03:30,LEVAY_B,8/3/18 0:16,~1mm spacers; with film; XRF 2
374,U1522,A,34,R,1,A,320,318.72,318.72,44324012,SHLF9313301,50,0.75,10,14,10,12,Cu,94525,582,191,7220,3309,935,1603,278,2255,515576,5194,XRF 2,7/9/2018,16:56:21,LEVAY_B,8/3/18 0:16,~1mm spacers; with film; XRF 2
374,U1522,A,34,R,1,A,1120,319.52,319.52,44324012,SHLF9313301,50,0.75,10,15,10,12,Cu,97730,471,163,7143,3393,879,1521,227,2178,510481,5806,XRF 2,7/9/2018,17:08:52,LEVAY_B,8/3/18 0:16,~1mm spacers; with film; XRF 2
374,U1522,A,34,R,2,A,740,320.55,320.55,44324022,SHLF9313331,50,0.75,10,15,10,12,Cu,97952,525,196,6315,3588,1062,1689,240,2069,505753,6986,XRF 2,7/9/2018,17:47:52,LEVAY_B,8/3/18 0:16,~1mm spacers; with film; XRF 2
374,U1522,A,35,R,1,A,420,328.42,328.42,44324032,SHLF9313521,50,0.75,10,14,10,12,Cu,95881,552,247,6241,3263,891,1499,184,1999,500678,5591,XRF 2,7/10/2018,9:24:43,LEVAY_B,8/3/18 0:16,~1mm spacers; with film; XRF 2
374,U1522,A,35,R,1,A,1020,329.02,329.02,44324032,SHLF9313521,50,0.75,10,15,10,12,Cu,99605,743,147,6930,3502,790,1628,228,2128,508254,6648,XRF 2,7/10/2018,9:37:11,LEVAY_B,8/3/18 0:16,~1mm spacers; with film; XRF 2
374,U1522,A,35,R,2,A,140,329.65,329.65,44324042,SHLF9313551,50,0.75,10,14,10,12,Cu,95360,490,114,5861,3305,907,1415,156,1978,506258,5383,XRF 2,7/10/2018,10:41:01,LEVAY_B,8/3/18 0:16,~1mm spacers; with film; XRF 2
374,U1522,A,35,R,2,A,780,330.29,330.29,44324042,SHLF9313551,50,0.75,10,14,10,12,Cu,95673,465,159,5515,3349,916,1362,266,2068,507814,5746,XRF 2,7/10/2018,10:53:33,LEVAY_B,8/3/18 0:16,~1mm spacers; with film; XRF 2
374,U1522,A,37,R,1,A,40,342.44,342.44,44324052,SHLF9313851,50,0.75,10,15,10,12,Cu,97869,509,119,7253,3543,927,1795,303,2076,513999,5403,XRF 2,7/10/2018,12:10:43,LEVAY_B,8/3/18 0:17,~1mm spacers; with film; XRF 2
374,U1522,A,37,R,1,A,680,343.08,343.08,44324052,SHLF9313851,50,0.75,10,14,10,12,Cu,94524,525,201,6493,3202,876,1998,204,2061,503404,4910,XRF 2,7/10/2018,12:23:11,LEVAY_B,8/3/18 0:17,~1mm spacers; with film; XRF 2
374,U1522,A,37,R,1,A,1300,343.7,343.7,44324052,SHLF9313851,50,0.75,10,14,10,12,Cu,93945,475,116,6003,3392,819,1320,198,1876,509644,4747,XRF 2,7/10/2018,12:35:38,LEVAY_B,8/3/18 0:17,~1mm spacers; with film; XRF 2
374,U1522,A,37,R,2,A,470,344.37,344.37,44324062,SHLF9313881,50,0.75,10,15,10,12,Cu,99450,631,251,7447,3554,954,1592,229,2004,511416,5947,XRF 2,7/10/2018,13:47:40,LEVAY_B,8/3/18 0:17,~1mm spacers; with film; XRF 2
374,U1522,A,37,R,2,A,1240,345.14,345.14,44324062,SHLF9313881,50,0.75,10,15,10,12,Cu,97079,493,110,7220,3463,844,1528,197,1947,516033,4991,XRF 2,7/10/2018,14:00:14,LEVAY_B,8/3/18 0:17,~1mm spacers; with film; XRF 2
374,U1522,A,37,R,3,A,530,345.93,345.93,44324072,SHLF9313911,50,0.75,10,14,10,12,Cu,94532,511,158,6588,3401,953,1360,167,2159,506099,4785,XRF 2,7/10/2018,14:46:59,LEVAY_B,8/3/18 0:17,~1mm spacers; with film; XRF 2
374,U1522,A,38,R,1,A,380,347.58,347.58,44324082,SHLF9314091,50,0.75,10,14,10,12,Cu,93743,417,202,5540,3371,757,1419,210,1894,504835,4862,XRF 2,7/10/2018,15:58:37,LEVAY_B,8/3/18 0:17,~1mm spacers; with film; XRF 2
374,U1522,A,38,R,1,A,1010,348.21,348.21,44324082,SHLF9314091,50,0.75,10,14,10,12,Cu,94381,547,122,5817,3359,783,1355,167,1870,509501,4782,XRF 2,7/10/2018,16:11:12,LEVAY_B,8/3/18 0:17,~1mm spacers; with film; XRF 2
374,U1522,A,38,R,2,A,280,348.88,348.88,44324092,SHLF9314121,50,0.75,10,14,10,12,Cu,95986,573,266,6591,3441,881,1373,223,1921,513210,4476,XRF 2,7/10/2018,16:57:59,LEVAY_B,8/3/18 0:17,~1mm spacers; with film; XRF 2
374,U1522,A,45,R,1,A,140,395.64,395.64,44324102,SHLF9315191,50,0.75,10,15,10,12,Cu,99685,541,52,6050,3736,882,1348,260,2121,511016,5315,XRF 2,7/10/2018,17:37:18,LEVAY_B,8/3/18 0:17,~1mm spacers; with film; XRF 2
374,U1522,A,45,R,2,A,100,397.12,397.12,44324112,SHLF9315221,50,0.75,10,15,10,12,Cu,97670,460,105,6664,3376,920,1499,201,2298,510391,5380,XRF 2,7/10/2018,18:16:53,LEVAY_B,8/3/18 0:17,~1mm spacers; with film; XRF 2
374,U1522,A,46,R,1,A,120,405.32,405.32,44324122,SHLF9315371,50,0.75,10,14,10,12,Cu,94028,642,161,6352,3435,1928,1461,246,2685,496985,9747,XRF 2,7/11/2018,9:04:16,LEVAY_B,8/3/18 0:17,~1mm spacers; with film; XRF 2
374,U1522,A,46,R,1,A,880,406.08,406.08,44324122,SHLF9315371,50,0.75,10,15,10,12,Cu,96140,657,145,7494,3339,947,1248,351,2403,504590,5665,XRF 2,7/11/2018,9:16:03,LEVAY_B,8/3/18 0:17,~1mm spacers; with film; XRF 2
374,U1522,A,46,R,2,A,60,406.76,406.76,44324132,SHLF9315401,50,0.75,10,14,10,12,Cu,93749,646,290,7808,3161,978,1217,283,2132,506389,4942,XRF 2,7/11/2018,10:20:27,LEVAY_B,8/3/18 0:17,~1mm spacers; with film; XRF 2
374,U1522,A,46,R,2,A,680,407.38,407.38,44324132,SHLF9315401,50,0.75,10,14,10,12,Cu,94544,650,184,8235,3451,942,1238,294,2155,506945,5512,XRF 2,7/11/2018,10:32:10,LEVAY_B,8/3/18 0:17,~1mm spacers; with film; XRF 2
374,U1522,A,46,R,2,A,1320,408.02,408.02,44324132,SHLF9315401,50,0.75,10,15,10,12,Cu,96950,623,155,8838,3517,965,1565,285,2582,511759,5529,XRF 2,7/11/2018,10:43:59,LEVAY_B,8/3/18 0:17,~1mm spacers; with film; XRF 2
374,U1522,A,46,R,3,A,490,408.7,408.7,44324142,SHLF9315431,50,0.75,10,14,10,12,Cu,93215,613,113,7680,3173,1180,1203,258,2280,504331,6464,XRF 2,7/11/2018,11:23:43,LEVAY_B,8/3/18 0:17,~1mm spacers; with film; XRF 2
374,U1522,A,47,R,1,A,480,415.38,415.38,44324152,SHLF9315581,50,0.75,10,14,10,12,Cu,94398,572,163,6489,3219,998,1313,287,2323,506716,5505,XRF 2,7/11/2018,12:05:45,LEVAY_B,8/3/18 0:17,~1mm spacers; with film; XRF 2
374,U1522,A,47,R,2,A,300,416.21,416.21,44324162,SHLF9315611,50,0.75,10,15,10,12,Cu,97012,636,217,7567,3428,1004,1493,262,2452,498696,6008,XRF 2,7/11/2018,12:58:55,LEVAY_B,8/3/18 0:17,~1mm spacers; with film; XRF 2
374,U1522,A,48,R,1,A,620,425.12,425.12,44324172,SHLF9315891,50,0.75,10,15,10,12,Cu,98336,690,196,8539,3337,941,1582,295,2185,510749,6105,XRF 2,7/11/2018,13:53:06,LEVAY_B,8/3/18 0:17,~1mm spacers; with film; XRF 2
374,U1522,A,48,R,1,A,1340,425.84,425.84,44324172,SHLF9315891,50,0.75,10,14,10,12,Cu,96142,665,95,7873,3419,878,1464,230,2153,509214,5638,XRF 2,7/11/2018,14:05:07,LEVAY_B,8/3/18 0:17,~1mm spacers; with film; XRF 2
374,U1522,A,48,R,2,A,680,426.63,426.63,44324182,SHLF9315921,50,0.75,10,14,10,12,Cu,96221,609,222,7792,3341,898,1707,285,2143,510806,5158,XRF 2,7/11/2018,15:02:24,LEVAY_B,8/3/18 0:17,~1mm spacers; with film; XRF 2
374,U1522,A,48,R,3,A,110,427.53,427.53,44324192,SHLF9315951,50,0.75,10,14,10,12,Cu,96195,430,157,6996,3469,810,1337,233,2134,516286,4932,XRF 2,7/11/2018,16:18:08,LEVAY_B,8/3/18 0:17,~1mm spacers; with film; XRF 2
374,U1522,A,48,R,3,A,740,428.16,428.16,44324192,SHLF9315951,50,0.75,10,15,10,12,Cu,98238,584,87,8727,3525,961,1443,246,2405,507491,5561,XRF 2,7/11/2018,16:30:13,LEVAY_B,8/3/18 0:17,~1mm spacers; with film; XRF 2
374,U1522,A,48,R,4,A,390,428.92,428.92,44324202,SHLF9315981,50,0.75,10,14,10,12,Cu,95772,584,167,8287,3280,928,1470,200,1992,514453,4862,XRF 2,7/11/2018,17:40:53,LEVAY_B,8/3/18 0:18,~1mm spacers; with film; XRF 2
374,U1522,A,48,R,4,A,1300,429.83,429.83,44324202,SHLF9315981,50,0.75,10,15,10,12,Cu,96578,868,139,8164,3342,805,1638,264,1986,519351,4613,XRF 2,7/11/2018,17:53:02,LEVAY_B,8/3/18 0:18,~1mm spacers; with film; XRF 2
374,U1522,A,48,R,5,A,500,430.5,430.5,44324212,SHLF9316011,50,0.75,10,15,10,12,Cu,96308,391,128,8071,3367,859,1519,307,2285,510752,4866,XRF 2,7/12/2018,9:11:37,LEVAY_B,8/3/18 0:18,~1mm spacers; with film; XRF 2
374,U1522,A,48,R,5,A,1150,431.15,431.15,44324212,SHLF9316011,50,0.75,10,15,10,12,Cu,97984,545,225,8171,3524,912,1580,279,2243,511045,5309,XRF 2,7/12/2018,9:23:48,LEVAY_B,8/3/18 0:18,~1mm spacers; with film; XRF 2
374,U1522,A,48,R,6,A,380,431.89,431.89,44324222,SHLF9316041,50,0.75,10,15,10,12,Cu,97849,671,98,7925,3474,849,1517,260,2056,512010,4917,XRF 2,7/12/2018,10:19:11,LEVAY_B,8/3/18 0:18,~1mm spacers; with film; XRF 2
374,U1522,A,48,R,6,A,1060,432.57,432.57,44324222,SHLF9316041,50,0.75,10,15,10,12,Cu,97011,531,145,7302,3511,876,1376,200,2052,511952,4593,XRF 2,7/12/2018,10:31:23,LEVAY_B,8/3/18 0:18,~1mm spacers; with film; XRF 2
374,U1522,A,49,R,1,A,480,434.58,434.58,44324232,SHLF9316231,50,0.75,10,15,10,12,Cu,98467,545,119,7212,3542,921,1445,276,2143,513559,5088,XRF 2,7/12/2018,11:33:13,LEVAY_B,8/3/18 0:18,~1mm spacers; with film; XRF 2
374,U1522,A,49,R,1,A,1120,435.22,435.22,44324232,SHLF9316231,50,0.75,10,15,10,12,Cu,98252,478,117,7323,3522,893,1430,227,2070,518227,4873,XRF 2,7/12/2018,11:45:33,LEVAY_B,8/3/18 0:18,~1mm spacers; with film; XRF 2
374,U1522,A,49,R,2,A,280,435.88,435.88,44324242,SHLF9316261,50,0.75,10,15,10,12,Cu,99986,622,216,7983,3571,881,1455,258,2199,518473,5126,XRF 2,7/12/2018,12:47:46,LEVAY_B,8/3/18 0:18,~1mm spacers; with film; XRF 2
374,U1522,A,49,R,2,A,1000,436.6,436.6,44324242,SHLF9316261,50,0.75,10,15,10,12,Cu,99730,577,249,7979,3488,918,1457,252,2248,513643,5373,XRF 2,7/12/2018,13:00:07,LEVAY_B,8/3/18 0:18,~1mm spacers; with film; XRF 2
374,U1522,A,49,R,3,A,140,437.23,437.23,44324252,SHLF9316291,50,0.75,10,15,10,12,Cu,98461,544,223,7104,3626,802,1352,237,1994,523550,4970,XRF 2,7/12/2018,14:15:19,LEVAY_B,8/3/18 0:18,~1mm spacers; with film; XRF 2
374,U1522,A,49,R,3,A,790,437.88,437.88,44324252,SHLF9316291,50,0.75,10,15,10,12,Cu,99450,548,203,6841,3571,906,1494,192,2180,531417,4929,XRF 2,7/12/2018,14:27:42,LEVAY_B,8/3/18 0:18,~1mm spacers; with film; XRF 2
374,U1522,A,49,R,3,A,1420,438.51,438.51,44324252,SHLF9316291,50,0.75,10,15,10,12,Cu,102207,582,201,7656,3617,834,1390,262,1970,548246,4772,XRF 2,7/12/2018,14:40:00,LEVAY_B,8/3/18 0:18,~1mm spacers; with film; XRF 2
374,U1522,A,49,R,4,A,940,439.53,439.53,44324262,SHLF9316321,50,0.75,10,14,10,12,Cu,94751,516,174,6474,3354,672,1297,250,1955,515261,3906,XRF 2,7/12/2018,15:31:43,LEVAY_B,8/3/18 0:18,~1mm spacers; with film; XRF 2
374,U1522,A,49,R,5,A,440,440.53,440.53,44324272,SHLF9316351,50,0.75,10,14,10,12,Cu,95499,427,222,6343,3461,785,1215,189,1913,516502,4381,XRF 2,7/12/2018,16:32:29,LEVAY_B,8/3/18 0:18,~1mm spacers; with film; XRF 2
374,U1522,A,49,R,5,A,1080,441.17,441.17,44324272,SHLF9316351,50,0.75,10,15,10,12,Cu,99429,606,218,7683,3598,881,1499,292,2088,519379,4709,XRF 2,7/12/2018,16:44:32,LEVAY_B,8/3/18 0:18,~1mm spacers; with film; XRF 2
374,U1522,A,49,R,6,A,460,442.06,442.06,44324282,SHLF9316381,50,0.75,10,14,10,12,Cu,90477,469,169,5327,3146,660,956,133,1572,512411,3466,XRF 2,7/12/2018,17:28:55,LEVAY_B,8/3/18 0:18,~1mm spacers; with film; XRF 2
374,U1522,A,49,R,CC,A,20,442.75,442.75,44324292,SHLF9316411,50,0.75,10,15,10,12,Cu,100080,563,162,7959,3485,913,1502,229,2182,517181,5227,XRF 2,7/13/2018,8:29:26,LEVAY_B,8/3/18 0:18,~1mm spacers; with film; XRF 2
374,U1522,A,50,R,1,A,260,443.96,443.96,44324302,SHLF9316531,50,0.75,10,15,10,12,Cu,96334,603,103,7054,3466,784,1344,278,1979,510705,4440,XRF 2,7/13/2018,9:27:57,LEVAY_B,8/3/18 0:18,~1mm spacers; with film; XRF 2
374,U1522,A,50,R,1,A,880,444.58,444.58,44324302,SHLF9316531,50,0.75,10,15,10,12,Cu,98090,564,154,7583,3388,883,1429,198,1910,513595,4815,XRF 2,7/13/2018,9:39:52,LEVAY_B,8/3/18 0:18,~1mm spacers; with film; XRF 2
374,U1522,A,50,R,2,A,60,445.22,445.22,44324312,SHLF9316561,50,0.75,10,15,10,12,Cu,97697,479,162,7314,3559,861,1461,221,2144,506305,4770,XRF 2,7/13/2018,11:12:54,LEVAY_B,8/3/18 0:18,~1mm spacers; with film; XRF 2
374,U1522,A,50,R,2,A,680,445.84,445.84,44324312,SHLF9316561,50,0.75,10,15,10,12,Cu,96236,498,99,7166,3384,847,1380,243,2037,510089,4426,XRF 2,7/13/2018,11:24:51,LEVAY_B,8/3/18 0:18,~1mm spacers; with film; XRF 2
374,U1522,A,50,R,2,A,1300,446.46,446.46,44324312,SHLF9316561,50,0.75,10,15,10,12,Cu,98036,601,253,7595,3385,842,1363,215,2392,512615,4797,XRF 2,7/13/2018,11:36:45,LEVAY_B,8/3/18 0:18,~1mm spacers; with film; XRF 2
374,U1522,A,50,R,3,A,480,447.11,447.11,44324322,SHLF9316591,50,0.75,10,14,10,12,Cu,95516,493,208,6606,3316,888,1244,173,1792,513350,3946,XRF 2,7/13/2018,12:37:44,LEVAY_B,8/3/18 0:18,~1mm spacers; with film; XRF 2
374,U1522,A,50,R,3,A,1100,447.73,447.73,44324322,SHLF9316591,50,0.75,10,14,10,12,Cu,88566,459,230,5275,3067,626,881,181,1367,511598,2679,XRF 2,7/13/2018,12:49:43,LEVAY_B,8/3/18 0:18,~1mm spacers; with film; XRF 2
374,U1522,A,50,R,4,A,260,448.35,448.35,44324332,SHLF9316621,50,0.75,10,14,10,12,Cu,95533,482,113,7188,3311,843,1355,183,1771,514102,4302,XRF 2,7/13/2018,13:49:09,LEVAY_B,8/3/18 0:19,~1mm spacers; with film; XRF 2
374,U1522,A,50,R,4,A,890,448.98,448.98,44324332,SHLF9316621,50,0.75,10,14,10,12,Cu,96091,543,103,7423,3331,738,1213,250,2012,510983,4144,XRF 2,7/13/2018,14:01:12,LEVAY_B,8/3/18 0:19,~1mm spacers; with film; XRF 2
374,U1522,A,50,R,5,A,340,449.75,449.75,44324342,SHLF9316651,50,0.75,10,15,10,12,Cu,99067,734,132,7936,3521,776,1456,336,2105,519901,4844,XRF 2,7/13/2018,14:44:55,LEVAY_B,8/3/18 0:19,~1mm spacers; with film; XRF 2
374,U1522,A,51,R,1,A,200,453.5,453.5,44324352,SHLF9316841,50,0.75,10,14,10,12,Cu,95990,537,183,6773,3266,830,1183,241,1834,514252,4005,XRF 2,7/13/2018,15:25:22,LEVAY_B,8/3/18 0:19,~1mm spacers; with film; XRF 2
374,U1522,A,51,R,2,A,50,454.82,454.82,44324362,SHLF9316871,50,0.75,10,15,10,12,Cu,97472,664,130,6685,3360,756,1328,209,1825,526163,4205,XRF 2,7/13/2018,16:04:50,LEVAY_B,8/3/18 0:19,~1mm spacers; with film; XRF 2
374,U1522,A,51,R,2,A,1360,456.13,456.13,44324362,SHLF9316871,50,0.75,10,15,10,12,Cu,98609,519,136,6633,3382,789,1397,234,2050,514410,4816,XRF 2,7/13/2018,16:17:13,LEVAY_B,8/3/18 0:19,~1mm spacers; with film; XRF 2
374,U1522,A,51,R,4,A,70,457.78,457.78,44324382,SHLF9316931,50,0.75,10,15,10,12,Cu,98790,548,133,7787,3499,814,1307,260,2292,512905,5028,XRF 2,7/13/2018,17:13:40,LEVAY_B,8/3/18 0:19,~1mm spacers; with film; XRF 2
374,U1522,A,51,R,5,A,720,459.8,459.8,44324392,SHLF9316961,50,0.75,10,14,10,12,Cu,91847,638,96,4802,3183,566,827,150,1292,518078,3533,XRF 2,7/13/2018,17:51:58,LEVAY_B,8/3/18 0:19,~1mm spacers; with film; XRF 2
374,U1522,A,51,R,6,A,760,461.28,461.28,44324402,SHLF9316991,50,0.75,10,15,10,12,Cu,98621,575,246,7428,3453,731,1456,205,2070,511144,4644,XRF 2,7/13/2018,18:30:08,LEVAY_B,8/3/18 0:19,~1mm spacers; with film; XRF 2
374,U1522,A,52,R,1,A,310,463.21,463.21,44324422,SHLF9317171,50,0.75,10,15,10,12,Cu,99984,477,249,7849,3625,879,1569,278,2166,515855,4858,XRF 2,7/14/2018,10:52:11,LEVAY_B,8/3/18 0:19,~1mm spacers; with film; XRF 2
374,U1522,A,52,R,2,A,240,464.6,464.6,44324432,SHLF9317201,50,0.75,10,15,10,12,Cu,96695,529,141,6877,3387,797,1266,211,1839,519035,4166,XRF 2,7/14/2018,11:36:22,LEVAY_B,8/3/18 0:19,~1mm spacers; with film; XRF 2
374,U1522,A,52,R,3,A,120,465.85,465.85,44324442,SHLF9317231,50,0.75,10,14,10,12,Cu,95897,563,174,8663,3429,890,1494,239,2025,510554,5266,XRF 2,7/14/2018,12:15:26,LEVAY_B,8/3/18 0:19,~1mm spacers; with film; XRF 2
374,U1522,A,52,R,4,A,80,467.1,467.1,44324452,SHLF9317261,50,0.75,10,15,10,12,Cu,99182,509,149,8617,3519,994,1416,288,2427,512953,5894,XRF 2,7/14/2018,12:55:53,LEVAY_B,8/3/18 0:19,~1mm spacers; with film; XRF 2
374,U1522,A,52,R,5,A,40,468.44,468.44,44324462,SHLF9317291,50,0.75,10,15,10,12,Cu,99931,667,233,9325,3563,985,1427,213,2117,515611,4684,XRF 2,7/14/2018,13:43:14,LEVAY_B,8/3/18 0:19,~1mm spacers; with film; XRF 2
374,U1522,A,52,R,5,A,1300,469.7,469.7,44324462,SHLF9317291,50,0.75,10,14,10,12,Cu,96241,670,95,8155,3371,899,1426,264,2067,512375,4876,XRF 2,7/14/2018,13:55:43,LEVAY_B,8/3/18 0:19,~1mm spacers; with film; XRF 2
374,U1522,A,53,R,1,A,350,472.85,472.85,44324482,SHLF9317561,50,0.75,10,14,10,12,Cu,90842,444,141,7429,3184,816,1285,177,1773,512314,4039,XRF 2,7/15/2018,14:09:51,LEVAY_B,8/3/18 0:19,~1mm spacers; with film; XRF 2
374,U1522,A,53,R,2,A,320,474.28,474.28,44324492,SHLF9317591,50,0.75,10,14,10,12,Cu,95549,597,220,8001,3189,858,1437,292,2079,516148,4309,XRF 2,7/15/2018,14:53:21,LEVAY_B,8/3/18 0:19,~1mm spacers; with film; XRF 2
374,U1522,A,53,R,3,A,200,475.62,475.62,44324502,SHLF9317621,50,0.75,10,15,10,12,Cu,98992,498,238,8185,3465,887,1300,280,1872,546436,4476,XRF 2,7/15/2018,15:50:16,LEVAY_B,8/3/18 0:20,~1mm spacers; with film; XRF 2
374,U1522,A,53,R,4,A,60,476.94,476.94,44324512,SHLF9317651,50,0.75,10,15,10,12,Cu,98316,545,117,7714,3506,930,1449,240,2316,529812,4816,XRF 2,7/15/2018,16:38:48,LEVAY_B,8/3/18 0:20,~1mm spacers; with film; XRF 2
374,U1522,A,53,R,5,A,140,478.49,478.49,44324522,SHLF9317681,50,0.75,10,15,10,12,Cu,99133,623,238,7338,3604,867,1491,338,2099,537278,5309,XRF 2,7/15/2018,17:54:51,LEVAY_B,8/3/18 0:20,~1mm spacers; with film; XRF 2
374,U1522,A,53,R,5,A,1310,479.66,479.66,44324522,SHLF9317681,50,0.75,10,15,10,12,Cu,101596,511,162,8900,3576,1020,1352,327,2332,548753,5738,XRF 2,7/15/2018,18:07:30,LEVAY_B,8/3/18 0:20,~1mm spacers; with film; XRF 2
374,U1522,A,53,R,7,A,110,481.02,481.02,44324542,SHLF9317741,50,0.75,10,15,10,12,Cu,96487,614,184,8405,3386,925,1521,236,2326,511015,5160,XRF 2,7/16/2018,9:34:24,LEVAY_B,8/3/18 0:20,~1mm spacers; with film; XRF 2
374,U1522,A,54,R,1,A,480,482.58,482.58,44324552,SHLF9317981,50,0.75,10,15,10,12,Cu,96231,609,152,8295,3402,882,1517,342,2324,509417,5056,XRF 2,7/16/2018,10:36:58,LEVAY_B,8/3/18 0:20,~1mm spacers; with film; XRF 2
374,U1522,A,54,R,2,A,200,483.76,483.76,44324562,SHLF9318011,50,0.75,10,15,10,12,Cu,99017,648,192,9329,3555,871,1457,288,2343,519403,5444,XRF 2,7/16/2018,11:21:41,LEVAY_B,8/3/18 0:20,~1mm spacers; with film; XRF 2
374,U1522,A,54,R,2,A,1300,484.86,484.86,44324562,SHLF9318011,50,0.75,10,15,10,12,Cu,99448,728,226,9953,3422,978,1655,197,2258,520988,5519,XRF 2,7/16/2018,11:34:31,LEVAY_B,8/3/18 0:20,~1mm spacers; with film; XRF 2
374,U1522,A,55,R,1,A,600,492.3,492.3,44324582,SHLF9318301,50,0.75,10,14,10,12,Cu,96100,631,131,7825,3372,778,1314,259,2067,512810,4752,XRF 2,7/16/2018,12:31:46,LEVAY_B,8/3/18 0:20,~1mm spacers; with film; XRF 2
374,U1522,A,55,R,2,A,240,493.36,493.36,44324592,SHLF9318331,50,0.75,10,14,10,12,Cu,93700,602,155,7141,3309,690,1073,197,1653,515614,3948,XRF 2,7/16/2018,13:22:54,LEVAY_B,8/3/18 0:20,~1mm spacers; with film; XRF 2
374,U1522,A,55,R,3,A,80,494.49,494.49,44324602,SHLF9318361,50,0.75,10,15,10,12,Cu,97684,577,152,8418,3375,950,1354,295,2088,517164,4884,XRF 2,7/16/2018,13:53:53,LEVAY_B,8/3/18 0:20,~1mm spacers; with film; XRF 2
374,U1522,A,56,R,1,A,680,501.98,501.98,44324612,SHLF9318611,50,0.75,10,14,10,12,Cu,95943,721,269,9385,3299,956,1476,234,2149,510157,5182,XRF 2,7/16/2018,14:36:34,LEVAY_B,8/3/18 0:20,~1mm spacers; with film; XRF 2
374,U1522,A,56,R,2,A,480,503.24,503.24,44324622,SHLF9318641,50,0.75,10,15,10,12,Cu,98305,532,139,9228,3487,1041,1405,219,2232,513703,5489,XRF 2,7/16/2018,15:21:57,LEVAY_B,8/3/18 0:20,~1mm spacers; with film; XRF 2
374,U1522,A,56,R,4,A,40,504.43,504.43,44324642,SHLF9318701,50,0.75,10,15,10,12,Cu,98464,539,132,7998,3387,1019,1319,303,2150,534952,5187,XRF 2,7/16/2018,16:17:14,LEVAY_B,8/3/18 0:20,~1mm spacers; with film; XRF 2
374,U1522,A,57,R,1,A,990,511.89,511.89,44324652,SHLF9319061,50,0.75,10,15,10,12,Cu,98241,587,190,9555,3500,1225,1554,344,2503,511357,6151,XRF 2,7/16/2018,16:56:25,LEVAY_B,8/3/18 0:20,~1mm spacers; with film; XRF 2
374,U1522,A,57,R,2,A,1040,513.29,513.29,44324662,SHLF9319091,50,0.75,10,15,10,12,Cu,98593,427,108,8257,3435,1064,1553,319,2505,513009,5779,XRF 2,7/16/2018,17:40:50,LEVAY_B,8/3/18 0:20,~1mm spacers; with film; XRF 2
374,U1522,A,57,R,3,A,1270,514.81,514.81,44324672,SHLF9319121,50,0.75,10,15,10,12,Cu,97593,624,180,8429,3220,1041,1387,309,2565,506793,5620,XRF 2,7/17/2018,9:33:13,LEVAY_B,8/3/18 0:21,~1mm spacers; with film; XRF 2
374,U1522,A,57,R,4,A,1160,516.2,516.2,44324682,SHLF9319151,50,0.75,10,15,10,12,Cu,96521,478,135,8698,3367,1141,1502,313,2518,511793,5426,XRF 2,7/17/2018,10:25:26,LEVAY_B,8/3/18 0:21,~1mm spacers; with film; XRF 2
374,U1522,A,57,R,4,A,960,516,516,44324702,SHLF9319151,50,0.75,10,15,10,12,Cu,99732,441,142,9462,3550,1146,1575,361,2589,524672,5607,XRF 2,7/17/2018,11:38:25,LEVAY_B,8/3/18 0:21,~1mm spacers; with film; XRF 2
374,U1522,A,57,R,4,A,800,515.84,515.84,44324712,SHLF9319151,50,0.75,10,15,10,12,Cu,98557,714,157,8191,3492,860,2540,261,1798,521262,5239,XRF 2,7/17/2018,12:34:36,LEVAY_B,8/3/18 0:21,~1mm spacers; with film; XRF 2
374,U1522,A,57,R,4,A,560,515.6,515.6,44324722,SHLF9319151,50,0.75,10,15,10,12,Cu,98189,658,247,8974,3514,995,1726,324,2440,524069,5410,XRF 2,7/17/2018,13:17:14,LEVAY_B,8/3/18 0:21,~1mm spacers; with film; XRF 2
374,U1522,A,57,R,4,A,460,515.5,515.5,44324692,SHLF9319151,50,0.75,10,15,10,12,Cu,98986,504,249,9005,3452,1070,1397,361,2371,516679,5020,XRF 2,7/17/2018,10:55:21,LEVAY_B,8/3/18 0:21,~1mm spacers; with film; XRF 2
374,U1522,A,58,R,4,A,1010,525.75,525.75,44324732,SHLF9319541,50,0.75,10,14,10,12,Cu,96360,544,232,8729,3459,1024,1484,273,2295,514533,5287,XRF 2,7/17/2018,14:07:10,LEVAY_B,8/3/18 0:21,~1mm spacers; with film; XRF 2
374,U1522,A,58,R,4,A,1200,525.94,525.94,44324742,SHLF9319541,50,0.75,10,14,10,12,Cu,89627,360,204,5954,3037,750,917,180,1599,518529,3449,XRF 2,7/17/2018,14:57:11,LEVAY_B,8/3/18 0:21,~1mm spacers; with film; XRF 2
374,U1522,A,58,R,6,A,960,528.2,528.2,44324752,SHLF9319601,50,0.75,10,15,10,12,Cu,97844,500,277,9181,3399,1103,1432,268,2480,520546,5074,XRF 2,7/17/2018,15:53:41,LEVAY_B,8/3/18 0:21,~1mm spacers; with film; XRF 2
374,U1522,A,59,R,1,A,280,530.38,530.38,44324772,SHLF9319891,50,0.75,10,14,10,12,Cu,96338,534,157,8165,3342,979,1283,227,2203,525602,4613,XRF 2,7/17/2018,16:53:27,LEVAY_B,8/3/18 0:21,~1mm spacers; with film; XRF 2
374,U1522,A,59,R,2,A,220,531.68,531.68,44324782,SHLF9319921,50,0.75,10,15,10,12,Cu,100404,561,87,8935,3606,1013,1464,282,2612,531173,5310,XRF 2,7/17/2018,17:55:00,LEVAY_B,8/3/18 0:21,~1mm spacers; with film; XRF 2
374,U1522,A,59,R,3,A,40,533.01,533.01,44324792,SHLF9319951,50,0.75,10,14,10,12,Cu,96635,574,137,8419,3394,944,1273,291,2179,526594,4630,XRF 2,7/17/2018,18:28:03,LEVAY_B,8/3/18 0:21,~1mm spacers; with film; XRF 2
374,U1522,A,59,R,4,A,540,534.33,534.33,44324802,SHLF9319981,50,0.75,10,15,10,12,Cu,100692,652,130,9349,3565,1130,1511,371,2661,528680,5731,XRF 2,7/17/2018,19:22:36,LEVAY_B,8/3/18 0:21,~1mm spacers; with film; XRF 2
374,U1522,A,59,R,5,A,960,535.59,535.59,44324812,SHLF9320011,50,0.75,10,15,10,12,Cu,99211,551,142,8923,3373,1003,1338,230,2302,522948,5634,XRF 2,7/18/2018,9:53:20,LEVAY_B,8/3/18 0:21,~1mm spacers; with film; XRF 2
374,U1522,A,59,R,6,A,760,536.89,536.89,44324822,SHLF9320041,50,0.75,10,15,10,12,Cu,99285,738,183,9528,3662,1038,1684,299,2336,522782,5549,XRF 2,7/18/2018,10:27:38,LEVAY_B,8/3/18 0:21,~1mm spacers; with film; XRF 2
374,U1522,A,60,R,1,A,160,539.86,539.86,44324842,SHLF9320261,50,0.75,10,15,10,12,Cu,97409,585,217,8141,3415,1098,1300,302,2309,529133,4982,XRF 2,7/18/2018,11:37:48,LEVAY_B,8/3/18 0:22,~1mm spacers; with film; XRF 2
374,U1522,A,60,R,1,A,1400,541.1,541.1,44324842,SHLF9320261,50,0.75,10,15,10,12,Cu,99809,587,166,8705,3445,1013,2281,172,2070,535856,6167,XRF 2,7/18/2018,11:51:09,LEVAY_B,8/3/18 0:22,~1mm spacers; with film; XRF 2
374,U1522,A,60,R,2,A,1200,542.38,542.38,44324852,SHLF9320291,50,0.75,10,15,10,12,Cu,97702,451,227,8658,3396,996,1321,257,2720,528399,4961,XRF 2,7/18/2018,12:33:02,LEVAY_B,8/3/18 0:22,~1mm spacers; with film; XRF 2
374,U1522,A,60,R,3,A,1080,543.59,543.59,44324862,SHLF9320321,50,0.75,10,15,10,12,Cu,100130,647,230,9171,3537,1082,1494,374,2561,524731,5786,XRF 2,7/18/2018,13:15:39,LEVAY_B,8/3/18 0:22,~1mm spacers; with film; XRF 2
374,U1522,A,60,R,4,A,880,544.87,544.87,44324872,SHLF9320351,50,0.75,10,15,10,12,Cu,101464,593,197,9930,3638,1160,1539,312,2545,530533,6029,XRF 2,7/18/2018,14:19:01,LEVAY_B,8/3/18 0:22,~1mm spacers; with film; XRF 2
374,U1522,A,60,R,5,A,840,546.17,546.17,44324882,SHLF9320381,50,0.75,10,15,10,12,Cu,98771,611,171,7293,3402,1009,1119,250,2171,528970,4639,XRF 2,7/18/2018,15:04:05,LEVAY_B,8/3/18 0:22,~1mm spacers; with film; XRF 2
374,U1522,A,60,R,7,A,80,547.88,547.88,44324902,SHLF9320441,50,0.75,10,15,10,12,Cu,99270,588,298,9103,3516,941,1757,287,2098,527392,5254,XRF 2,7/18/2018,15:59:48,LEVAY_B,8/3/18 0:22,~1mm spacers; with film; XRF 2
374,U1522,A,62,R,1,A,80,558.88,558.88,44324932,SHLF9330101,50,0.75,10,14,10,12,Cu,94911,480,194,4173,3213,679,1188,171,2732,531996,3860,XRF 2,7/19/2018,9:08:43,LEVAY_B,8/3/18 0:22,~1mm spacers; with film; XRF 2
374,U1522,A,62,R,2,A,480,560.5,560.5,44324942,SHLF9330131,50,0.75,10,14,10,12,Cu,93218,574,71,3576,3197,1111,846,187,1532,523515,3194,XRF 2,7/19/2018,9:47:21,LEVAY_B,8/3/18 0:22,~1mm spacers; with film; XRF 2
374,U1522,A,63,R,1,A,100,568.4,568.4,44324962,SHLF9330531,50,0.75,10,15,10,12,Cu,104157,582,209,8914,3701,1175,1472,320,2802,553022,5271,XRF 2,7/19/2018,10:58:26,LEVAY_B,8/3/18 0:22,~1mm spacers; with film; XRF 2
374,U1522,A,63,R,1,A,1320,569.62,569.62,44324962,SHLF9330531,50,0.75,10,14,10,12,Cu,94240,463,174,6099,3422,738,1065,236,1534,547517,3368,XRF 2,7/19/2018,11:11:57,LEVAY_B,8/3/18 0:22,~1mm spacers; with film; XRF 2
374,U1522,A,63,R,2,A,1240,570.9,570.9,44324972,SHLF9330561,50,0.75,10,15,10,12,Cu,98246,603,184,7636,3294,1024,1673,281,2285,530796,5902,XRF 2,7/19/2018,12:01:10,LEVAY_B,8/3/18 0:22,~1mm spacers; with film; XRF 2
374,U1522,A,63,R,3,A,1040,572.19,572.19,44324982,SHLF9330591,50,0.75,10,15,10,12,Cu,101322,703,111,8790,3628,1032,1602,284,2397,526934,6033,XRF 2,7/19/2018,12:44:03,LEVAY_B,8/3/18 0:22,~1mm spacers; with film; XRF 2
374,U1522,A,63,R,5,A,80,574.07,574.07,44325002,SHLF9330651,50,0.75,10,15,10,12,Cu,99873,457,146,8115,3573,1099,1472,335,2843,526329,5352,XRF 2,7/19/2018,13:50:40,LEVAY_B,8/3/18 0:22,~1mm spacers; with film; XRF 2
374,U1522,A,63,R,5,A,1400,575.39,575.39,44325002,SHLF9330651,50,0.75,10,15,10,12,Cu,98305,389,165,7720,3373,966,1300,283,2077,529198,4990,XRF 2,7/19/2018,14:04:01,LEVAY_B,8/3/18 0:22,~1mm spacers; with film; XRF 2
374,U1522,A,63,R,CC,A,430,576.84,576.84,44325022,SHLF9330711,50,0.75,10,14,10,12,Cu,97150,520,125,6398,3460,939,1138,223,2194,555712,3905,XRF 2,7/19/2018,14:56:08,LEVAY_B,8/3/18 0:23,~1mm spacers; with film; XRF 2
374,U1522,A,64,R,2,A,400,579.6,579.6,44325042,SHLF9330891,50,0.75,10,15,10,12,Cu,106762,529,106,7779,3802,1227,1459,311,2626,565453,5491,XRF 2,7/19/2018,16:05:07,LEVAY_B,8/3/18 0:23,~1mm spacers; with film; XRF 2
374,U1522,A,64,R,2,A,1440,580.64,580.64,44325042,SHLF9330891,50,0.75,10,15,10,12,Cu,107511,625,109,7943,3712,1142,1554,262,2928,566639,5789,XRF 2,7/19/2018,16:18:28,LEVAY_B,8/3/18 0:23,~1mm spacers; with film; XRF 2
374,U1522,A,64,R,4,A,120,582.21,582.21,44325062,SHLF9330951,50,0.75,10,15,10,12,Cu,103450,591,159,7575,3786,1041,1449,258,2555,541404,5343,XRF 2,7/19/2018,17:20:12,LEVAY_B,8/3/18 0:23,~1mm spacers; with film; XRF 2
374,U1522,A,65,R,1,A,630,587.93,587.93,44325072,SHLF9331131,50,0.75,10,15,10,12,Cu,98333,564,127,8600,3414,1103,1290,309,2460,524371,5221,XRF 2,7/20/2018,9:07:11,LEVAY_B,8/3/18 0:23,~1mm spacers; with film; XRF 2
374,U1522,A,65,R,2,A,940,589.62,589.62,44325082,SHLF9331161,50,0.75,10,15,10,12,Cu,100546,690,110,7890,3464,1084,1740,355,2504,530046,5487,XRF 2,7/20/2018,9:47:56,LEVAY_B,8/3/18 0:23,~1mm spacers; with film; XRF 2
374,U1522,A,65,R,3,A,800,590.93,590.93,44325092,SHLF9331191,50,0.75,10,15,10,12,Cu,98804,596,328,6686,3402,933,1175,275,2095,534510,4984,XRF 2,7/20/2018,10:31:47,LEVAY_B,8/3/18 0:23,~1mm spacers; with film; XRF 2
374,U1522,A,65,R,4,A,600,592.19,592.19,44325102,SHLF9331221,50,0.75,10,15,10,12,Cu,98910,575,118,8164,3489,1052,1457,253,2332,527707,4872,XRF 2,7/20/2018,11:12:37,LEVAY_B,8/3/18 0:23,~1mm spacers; with film; XRF 2
374,U1522,A,65,R,5,A,560,593.45,593.45,44325112,SHLF9331251,50,0.75,10,15,10,12,Cu,100079,588,236,8706,3568,1094,1537,275,2569,528880,5264,XRF 2,7/20/2018,11:56:28,LEVAY_B,8/3/18 0:23,~1mm spacers; with film; XRF 2
374,U1522,A,65,R,6,A,400,594.72,594.72,44325122,SHLF9331281,50,0.75,10,15,10,12,Cu,99523,649,203,9040,3467,1094,1550,359,2500,529044,5467,XRF 2,7/20/2018,12:23:23,LEVAY_B,8/3/18 0:23,~1mm spacers; with film; XRF 2
374,U1522,A,66,R,1,A,1160,597.96,597.96,44325132,SHLF9331431,50,0.75,10,15,10,12,Cu,100735,690,267,8987,3608,1067,1332,260,2278,538899,5122,XRF 2,7/20/2018,13:01:22,LEVAY_B,8/3/18 0:23,~1mm spacers; with film; XRF 2
374,U1522,A,66,R,2,A,1200,599.21,599.21,44325142,SHLF9331461,50,0.75,10,15,10,12,Cu,101277,597,168,9016,3561,1002,1332,320,2420,541700,5055,XRF 2,7/20/2018,13:41:36,LEVAY_B,8/3/18 0:23,~1mm spacers; with film; XRF 2
374,U1522,A,66,R,4,A,100,600.48,600.48,44325162,SHLF9331521,50,0.75,10,15,10,12,Cu,101522,550,234,9250,3497,1108,1429,286,2576,538448,5356,XRF 2,7/20/2018,14:43:57,LEVAY_B,8/3/18 0:23,~1mm spacers; with film; XRF 2
374,U1522,A,67,R,1,A,1280,607.58,607.58,44325172,SHLF9331801,50,0.75,10,15,10,12,Cu,98297,590,253,7385,3409,870,1187,236,2076,540249,4657,XRF 2,7/20/2018,15:19:20,LEVAY_B,8/3/18 0:23,~1mm spacers; with film; XRF 2
374,U1522,A,67,R,3,A,120,609.29,609.29,44325192,SHLF9331861,50,0.75,10,15,10,12,Cu,99333,693,52,8498,3607,1060,1419,281,2238,534033,4796,XRF 2,7/20/2018,16:27:14,LEVAY_B,8/3/18 0:24,~1mm spacers; with film; XRF 2
374,U1522,A,67,R,4,A,200,610.59,610.59,44325202,SHLF9331891,50,0.75,10,15,10,12,Cu,99939,594,157,8515,3474,1009,1399,329,2339,535222,5204,XRF 2,7/20/2018,17:01:50,LEVAY_B,8/3/18 0:24,~1mm spacers; with film; XRF 2
374,U1522,A,67,R,5,A,960,612.43,612.43,44325212,SHLF9331921,50,0.75,10,15,10,12,Cu,98640,452,183,7916,3491,1026,1342,291,2578,533690,5159,XRF 2,7/20/2018,17:36:09,LEVAY_B,8/3/18 0:24,~1mm spacers; with film; XRF 2
374,U1522,A,68,R,1,A,520,616.32,616.32,44325232,SHLF9332191,50,0.75,10,15,10,12,Cu,100055,676,194,9278,3423,1034,1553,258,2277,531583,5146,XRF 2,7/20/2018,18:48:00,LEVAY_B,8/3/18 0:24,~1mm spacers; with film; XRF 2
374,U1522,A,68,R,2,A,600,617.63,617.63,44325242,SHLF9332221,50,0.75,10,15,10,12,Cu,97667,701,166,8461,3445,967,1759,322,2343,521689,4961,XRF 2,7/20/2018,19:34:02,LEVAY_B,8/3/18 0:24,~1mm spacers; with film; XRF 2
374,U1522,A,68,R,3,A,650,619.02,619.02,44325252,SHLF9332251,50,0.75,10,15,10,12,Cu,100188,625,210,9168,3595,1051,1506,321,2580,525566,5150,XRF 2,7/20/2018,20:15:47,LEVAY_B,8/3/18 0:24,~1mm spacers; with film; XRF 2
374,U1522,A,68,R,4,A,480,620.27,620.27,44325262,SHLF9332281,50,0.75,10,15,10,12,Cu,100557,892,252,9443,3594,960,1449,260,2403,528274,5029,XRF 2,7/20/2018,20:59:34,LEVAY_B,8/3/18 0:24,~1mm spacers; with film; XRF 2
374,U1522,A,68,R,5,A,520,621.72,621.72,44325272,SHLF9332311,50,0.75,10,14,10,12,Cu,95935,515,108,6338,3337,836,1237,316,2050,526850,3900,XRF 2,7/20/2018,21:36:48,LEVAY_B,8/3/18 0:24,~1mm spacers; with film; XRF 2
374,U1522,A,69,R,1,A,160,625.46,625.46,44325292,SHLF9332591,50,0.75,10,15,10,12,Cu,96765,687,204,9679,3510,1043,1506,299,2436,498383,5249,XRF 2,7/21/2018,10:17:54,LEVAY_B,8/3/18 0:24,~1mm spacers; with film; XRF 2
374,U1522,A,70,R,1,A,240,635.04,635.04,44325302,SHLF9332821,50,0.75,10,15,10,12,Cu,96328,691,73,8795,3262,1096,1657,292,2365,499914,5665,XRF 2,7/21/2018,11:03:55,LEVAY_B,8/3/18 0:24,~1mm spacers; with film; XRF 2
374,U1522,A,70,R,2,A,40,636.24,636.24,44325312,SHLF9332851,50,0.75,10,15,10,12,Cu,96831,641,228,7684,3279,1301,1178,263,2085,513889,4844,XRF 2,7/21/2018,11:48:52,LEVAY_B,8/3/18 0:24,~1mm spacers; with film; XRF 2
374,U1522,A,70,R,2,A,1360,637.56,637.56,44325312,SHLF9332851,50,0.75,10,14,10,12,Cu,93608,1143,321,14737,3188,753,6149,112,1269,506431,9925,XRF 2,7/21/2018,12:00:54,LEVAY_B,8/3/18 0:24,~1mm spacers; with film; XRF 2
374,U1522,A,70,R,4,A,60,639.17,639.17,44325332,SHLF9332911,50,0.75,10,15,10,12,Cu,95837,639,249,8591,3478,922,1404,293,2317,493587,5330,XRF 2,7/21/2018,13:04:25,LEVAY_B,8/3/18 0:24,~1mm spacers; with film; XRF 2
374,U1522,A,70,R,5,A,40,640.64,640.64,44325342,SHLF9332941,50,0.75,10,14,10,12,Cu,95475,631,275,9606,3361,1055,1369,300,2386,495054,5352,XRF 2,7/21/2018,13:37:07,LEVAY_B,8/3/18 0:24,~1mm spacers; with film; XRF 2
374,U1522,A,71,R,1,A,600,644.9,644.9,44325352,SHLF9333261,50,0.75,10,15,10,12,Cu,96455,729,251,8920,3467,1061,1476,307,2183,499291,5384,XRF 2,7/21/2018,14:14:19,LEVAY_B,8/3/18 0:24,~1mm spacers; with film; XRF 2
374,U1522,A,71,R,2,A,560,646.18,646.18,44325362,SHLF9333291,50,0.75,10,15,10,12,Cu,95503,444,147,8214,3353,988,1376,251,2351,493765,5449,XRF 2,7/21/2018,14:56:57,LEVAY_B,8/3/18 0:25,~1mm spacers; with film; XRF 2
374,U1522,A,71,R,3,A,480,647.51,647.51,44325372,SHLF9333321,50,0.75,10,15,10,12,Cu,95798,582,244,8654,3231,1024,1328,281,2152,497750,5055,XRF 2,7/21/2018,15:36:39,LEVAY_B,8/3/18 0:25,~1mm spacers; with film; XRF 2
374,U1522,A,71,R,4,A,320,648.72,648.72,44325382,SHLF9333351,50,0.75,10,15,10,12,Cu,96089,663,126,8903,3253,1012,1347,338,2624,495248,5280,XRF 2,7/21/2018,16:17:03,LEVAY_B,8/3/18 0:25,~1mm spacers; with film; XRF 2
374,U1522,A,71,R,5,A,280,650.05,650.05,44325392,SHLF9333381,50,0.75,10,14,10,12,Cu,91571,564,177,7518,3216,954,1194,316,2062,494382,4142,XRF 2,7/21/2018,17:03:35,LEVAY_B,8/3/18 0:25,~1mm spacers; with film; XRF 2
374,U1522,A,72,R,1,A,80,653.88,653.88,44325402,SHLF9333571,50,0.75,10,15,10,12,Cu,97609,583,135,9592,3289,1121,1456,330,2563,507640,5320,XRF 2,7/21/2018,17:46:21,LEVAY_B,8/3/18 0:25,~1mm spacers; with film; XRF 2
374,U1522,A,72,R,2,A,40,655.24,655.24,44325412,SHLF9333601,50,0.75,10,14,10,12,Cu,94613,625,189,8037,3274,1132,1395,237,2337,494865,5166,XRF 2,7/21/2018,18:28:22,LEVAY_B,8/3/18 0:25,~1mm spacers; with film; XRF 2
374,U1522,A,72,R,2,A,1320,656.52,656.52,44325412,SHLF9333601,50,0.75,10,15,10,12,Cu,99258,622,145,7065,3660,1472,1253,310,2485,508239,5018,XRF 2,7/21/2018,18:40:29,LEVAY_B,8/3/18 0:25,~1mm spacers; with film; XRF 2
374,U1522,A,72,R,3,A,1240,657.77,657.77,44325422,SHLF9333631,50,0.75,10,14,10,12,Cu,95917,692,201,8282,3214,1040,1413,262,2473,502052,5427,XRF 2,7/21/2018,19:27:10,LEVAY_B,8/3/18 0:25,~1mm spacers; with film; XRF 2
374,U1522,A,72,R,4,A,1060,659.1,659.1,44325432,SHLF9333661,50,0.75,10,14,10,12,Cu,94636,911,158,11089,3431,779,2050,180,1944,502795,5314,XRF 2,7/21/2018,20:10:54,LEVAY_B,8/3/18 0:25,~1mm spacers; with film; XRF 2
374,U1522,A,72,R,5,A,940,660.52,660.52,44325442,SHLF9333691,50,0.75,10,14,10,12,Cu,82154,286,99,3601,2706,482,626,116,981,514040,1796,XRF 2,7/21/2018,20:41:10,LEVAY_B,8/3/18 0:25,~1mm spacers; with film; XRF 2
374,U1522,A,73,R,1,A,1230,664.63,664.63,44325452,SHLF9333931,50,0.75,10,15,10,12,Cu,96536,593,126,7064,3444,982,1396,284,2730,501321,5217,XRF 2,7/21/2018,21:22:34,LEVAY_B,8/3/18 0:25,~1mm spacers; with film; XRF 2
374,U1522,A,73,R,2,A,1160,665.96,665.96,44325462,SHLF9333961,50,0.75,10,14,10,12,Cu,94059,679,124,8822,3211,1131,1196,295,2325,498949,4856,XRF 2,7/22/2018,11:21:59,LEVAY_B,8/3/18 0:25,~1mm spacers; with film; XRF 2
374,U1522,A,73,R,3,A,1050,667.26,667.26,44325472,SHLF9333991,50,0.75,10,15,10,12,Cu,95915,587,175,8699,3364,1108,1290,243,2115,502702,5386,XRF 2,7/22/2018,12:04:32,LEVAY_B,8/3/18 0:25,~1mm spacers; with film; XRF 2
374,U1522,A,75,R,1,A,40,682.64,682.64,44325492,SHLF9334771,50,0.75,10,15,10,12,Cu,98097,804,319,9815,3332,1002,1432,376,2388,503593,5355,XRF 2,7/22/2018,13:10:48,LEVAY_B,8/3/18 0:25,~1mm spacers; with film; XRF 2
374,U1522,A,75,R,2,A,190,684.2,684.168,44325502,SHLF9334801,50,0.75,10,15,10,12,Cu,96589,744,220,8716,3430,1105,1368,295,2090,499078,5324,XRF 2,7/22/2018,13:55:29,LEVAY_B,8/3/18 0:25,~1mm spacers; with film; XRF 2
374,U1522,A,75,R,2,A,1400,685.41,685.378,44325502,SHLF9334801,50,0.75,10,15,10,12,Cu,98664,569,200,7963,3588,999,1328,317,2206,516767,5184,XRF 2,7/22/2018,14:07:48,LEVAY_B,8/3/18 0:25,~1mm spacers; with film; XRF 2
374,U1522,A,75,R,3,A,1200,686.66,686.596,44325512,SHLF9334831,50,0.75,10,14,10,12,Cu,95454,585,228,9004,3219,1031,1232,187,2358,494298,5092,XRF 2,7/22/2018,14:52:40,LEVAY_B,8/3/18 0:26,~1mm spacers; with film; XRF 2
374,U1522,A,75,R,4,A,1040,687.9,687.805,44325522,SHLF9334861,50,0.75,10,14,10,12,Cu,95396,562,157,8471,3512,958,1352,173,2057,495354,5018,XRF 2,7/22/2018,15:33:25,LEVAY_B,8/3/18 0:26,~1mm spacers; with film; XRF 2
374,U1522,A,75,R,5,A,840,689.12,688.993,44325532,SHLF9334891,50,0.75,10,14,10,12,Cu,92842,528,155,8092,3313,887,1211,278,2010,495357,4630,XRF 2,7/22/2018,16:15:31,LEVAY_B,8/3/18 0:26,~1mm spacers; with film; XRF 2
374,U1522,A,75,R,6,A,600,690.36,690.2,44325542,SHLF9334921,50,0.75,10,14,10,12,Cu,95733,482,263,9035,3517,1048,1283,251,2331,495689,5079,XRF 2,7/22/2018,16:56:09,LEVAY_B,8/3/18 0:26,~1mm spacers; with film; XRF 2
374,U1522,A,75,R,7,A,400,691.62,691.427,44325552,SHLF9334951,50,0.75,10,14,10,12,Cu,94421,515,186,10679,3250,747,2243,313,1784,496364,8285,XRF 2,7/22/2018,17:33:14,LEVAY_B,8/3/18 0:26,~1mm spacers; with film; XRF 2
374,U1522,A,76,R,1,A,600,692.8,692.8,44325562,SHLF9335151,50,0.75,10,15,10,12,Cu,97206,670,176,8021,3483,1033,1433,259,2206,499795,5000,XRF 2,7/22/2018,18:19:53,LEVAY_B,8/3/18 0:26,~1mm spacers; with film; XRF 2
374,U1522,A,76,R,2,A,440,694.13,694.13,44325572,SHLF9335181,50,0.75,10,15,10,12,Cu,96170,594,209,8385,3410,1060,1146,306,2197,495442,4969,XRF 2,7/22/2018,19:01:34,LEVAY_B,8/3/18 0:26,~1mm spacers; with film; XRF 2
374,U1522,A,76,R,3,A,560,695.51,695.51,44325582,SHLF9335211,50,0.75,10,13,10,12,Cu,79185,263,80,2678,2611,376,445,104,766,511245,1318,XRF 2,7/22/2018,19:25:31,LEVAY_B,8/3/18 0:26,~1mm spacers; with film; XRF 2